Folder: Python-/TecnicasDeCaractenizacion/Codigo

Note: README.md
# Python-
este repositorio lo usare para cargar mis archivos de python, por el momento de herramientas computacionales

File: anchos_gaussianas.csv
2theta,Intensity,Ancho FWHM,Cris. tamaño,D [nm] Average,, Cristalinidad,area por pico,suma de areas,area de todos los picos,,Cristalinidad del material
0.5275,3218,0.1949,40.7613,40.7854,,,265.77,948.174,1289.26,,73.544
0.0026,2465,0.195,40.7399,,,,148.89,,,,
6.402,1395,0.195,40.8036,,,,181.57,,,,
0.7125,1268,0.195,40.7407,,,,123.32,,,,
6.292,331,0.195,40.8014,,,,93.699,,,,
4.5021,251,0.1949,40.7923,,,,33.565,,,,
7.0369,213,0.195,40.8169,,,,27.197,,,,
6.5169,206,0.1949,40.8269,,,,74.163,,,,
,,,,,,,,,,,
,,,,,,,,,,,
,,,,,,,,,,,
,,,,,,,,,,,
2theta,theta,d-spaicing [Amstrong],,,,,,,,,
0.5275,0.26375,167.337,,,,,,,,,
0.0026,0.0013,33950,,,,,,,,,
6.402,3.201,13.795,,,,,,,,,
0.7125,0.35625,123.888,,,,,,,,,
6.292,3.146,14.036,,,,,,,,,
4.5021,2.25105,19.6114,,,,,,,,,
7.0369,3.51845,12.5517,,,,,,,,,
6.5169,3.25845,13.5521,,,,,,,,,