Folder: Python-/TecnicasDeCaractenizacion/Data

Note: README.md
# Python-
este repositorio lo usare para cargar mis archivos de python, por el momento de herramientas computacionales

File: PowDLL_XY_XRD_Sunday, December 03, 2023.csv
2Theta,cuenta
10.0231,1084
10.312,1132
10.6009,1176
10.8897,1166
11.1786,1257
11.4675,1199
11.7563,1194
12.0452,1202
12.3341,1245
12.6229,1237
12.9118,1186
13.2007,1189
13.4895,1274
13.7784,1287
14.0673,1282
14.3561,1233
14.645,1260
14.9339,1263
15.2227,1301
15.5116,1287
15.8005,1211
16.0893,1296
16.3782,1293
16.6671,1182
16.9559,1298
17.2448,1322
17.5337,1301
17.8225,1212
18.1114,1220
18.4003,1228
18.6891,1246
18.978,1202
19.2669,1230
19.5557,1204
19.8446,1253
20.1334,1156
20.4223,1176
20.7112,1209
21,1180
21.2889,1184
21.5778,1231
21.8666,1161
22.1555,1265
22.4444,1201
22.7332,1213
23.0221,1192
23.311,1228
23.5998,1203
23.8887,1144
24.1776,1419
24.4664,1225
24.7553,1140
25.0442,1172
25.333,1120
25.6219,1149
25.9108,1150
26.1996,1192
26.4885,1091
26.7774,1114
27.0662,1189
27.3551,1118
27.644,1112
27.9328,1181
28.2217,1214
28.5106,1115
28.7994,1114
29.0883,1044
29.3772,1079
29.666,1059
29.9549,997
30.2438,1075
30.5326,1324
30.8215,1425
31.1104,1187
31.3992,1051
31.6881,1033
31.977,1036
32.2658,1119
32.5547,1830
32.8436,1113
33.1324,1313
33.4213,1644
33.7102,1076
33.999,1012
34.2879,1574
34.5768,1039
34.8656,1023
35.1545,1048
35.4434,1135
35.7322,2430
36.0211,1146
36.31,1001
36.5988,1012
36.8877,982
37.1766,1104
37.4654,997
37.7543,1073
38.0432,1049
38.332,1037
38.6209,1078
38.9098,1017
39.1986,1003
39.4875,1066
39.7764,1064
40.0652,1089
40.3541,1023
40.643,1115
40.9318,1321
41.2207,1065
41.5096,976
41.7984,994
42.0873,949
42.3762,1012
42.665,1159
42.9539,995
43.2428,1057
43.5316,967
43.8205,1051
44.1094,1006
44.3982,1046
44.6871,978
44.9759,988
45.2648,916
45.5537,973
45.8425,990
46.1314,1052
46.4203,1080
46.7091,1109
46.998,1062
47.2869,1066
47.5757,1000
47.8646,977
48.1535,1020
48.4423,992
48.7312,993
49.0201,991
49.3089,1053
49.5978,1844
49.8867,1106
50.1755,1043
50.4644,1011
50.7533,1000
51.0421,1065
51.331,1034
51.6199,1032
51.9087,979
52.1976,984
52.4865,1025
52.7753,979
53.0642,1034
53.3531,995
53.6419,1013
53.9308,1108
54.2197,2007
54.5085,1073
54.7974,1068
55.0863,1056
55.3751,1177
55.664,1000
55.9529,1030
56.2417,1029
56.5306,1089
56.8195,1008
57.1083,1084
57.3972,1009
57.6861,1189
57.9749,1086
58.2638,948
58.5527,1000
58.8415,940
59.1304,1014
59.4193,955
59.7081,1009
59.997,1047
60.2859,987
60.5747,984
60.8636,935
61.1525,976
61.4413,1008
61.7302,922
62.0191,999
62.3079,1051
62.5968,1392
62.8857,1026
63.1745,1043
63.4634,1133
63.7523,1027
64.0411,1327
64.33,1208
64.6189,1002
64.9077,961
65.1966,1008
65.4855,978
65.7743,978
66.0632,909
66.3521,1046
66.6409,1003
66.9298,984
67.2187,995
67.5075,987
67.7964,1048
68.0853,1076
68.3741,1001
68.663,1057
68.9518,1021
69.2407,993
69.5296,1066
69.8184,1059
70.1073,1023
70.3962,1043
70.685,935
70.9739,950
71.2628,1036
71.5516,1006
71.8405,1029
72.1294,1143
72.4182,1108
72.7071,1011
72.996,1073
73.2848,1078
73.5737,988
73.8626,1055
74.1514,1048
74.4403,995
74.7292,1103
75.018,1035
75.3069,1059
75.5958,1148
75.8846,1052
76.1735,1007
76.4624,1062
76.7512,992
77.0401,1033
77.329,1120
77.6178,1127
77.9067,1052
78.19557,1080
78.4844,1043
78.7733,1028
79.0622,1056
79.351,995
79.6399,1038
79.9288,1065
80.2176,1069
80.5065,1060
80.7954,1123
81.0842,1058
81.3731,1007
81.662,994
81.9508,1021
82.2397,1041
82.5286,986
82.8174,1021
83.1063,1117
83.3952,1048
83.684,1024
83.9729,999
84.2618,1084
84.5506,1042
84.8395,1119
85.1284,1102
85.4172,1077
85.7061,1034
85.995,1054
86.2838,1075
86.5727,1091
86.8616,1044
87.1504,1038
87.4393,1095
87.7282,1034
88.017,1031
88.3059,1126
88.5948,1128
88.8836,1125
89.1725,1056
89.4614,1052
89.7502,1067
89.9866,1087